elodiz note: Sample Description:	Unoriented sample
Instrument settings:	Thermo Almega XR 785nm @ 100% of 500mW
DOWNLOADS:

	Raman Data (RAW) View Graph
RRUFF File



##NAMES=Calcite
##RRUFFID=R040070
##IDEAL CHEMISTRY=CaCO_3_
##LOCALITY=Pryor Mountain, Big Horn County, Montana, USA
##OWNER=RRUFF
##SOURCE=University of Arizona Mineral Museum
##DESCRIPTION=Orange scalenohedral crystals
##STATUS=The identification of this mineral has been confirmed by X-ray diffraction and chemical analysis
##URL=rruff.info/R040070
117.9119, 382.2266
119.8403, 494.9488
121.7688, 617.0251
123.6973, 745.0114
125.6257, 881.5561
127.5542, 931.7645
129.4827, 968.2148
131.4111, 1023.074
133.3396, 1088.147
135.2681, 1138.971
137.1965, 1262.275
139.1250, 1364.376
141.0535, 1546.567
142.9819, 1937.290
144.9104, 2602.847
146.8389, 3418.879
148.7673, 4433.732
150.6958, 6048.733
152.6243, 7120.791
154.5527, 7290.723
156.4812, 6736.418
158.4097, 5973.209
160.3381, 4782.762
162.2666, 3530.236
164.1951, 2603.677
166.1235, 2034.011
168.0520, 1642.048
169.9805, 1362.083
171.9089, 1220.504
173.8374, 1112.136
175.7659, 1042.274
177.6943, 1001.582
179.6228, 966.4354
181.5513, 936.6628
183.4797, 912.8313
185.4082, 894.9824
187.3367, 886.3481
189.2651, 880.0822
191.1936, 877.4133
193.1221, 877.4695
195.0505, 877.6509
196.9790, 877.0065
198.9075, 876.9114
200.8359, 878.4871
202.7644, 881.9382
204.6929, 886.2496
206.6213, 890.4371
208.5498, 894.2545
210.4783, 901.0145
212.4068, 914.0984
214.3352, 928.7195
216.2637, 938.5685
218.1922, 940.8111
220.1206, 943.8112
222.0491, 950.0709
223.9776, 959.7811
225.9060, 973.4637
227.8345, 990.4407
229.7630, 1011.790
231.6914, 1037.792
233.6199, 1069.195
235.5484, 1104.860
237.4768, 1143.344
239.4053, 1181.453
241.3338, 1228.438
243.2622, 1281.228
245.1907, 1343.729
247.1192, 1421.377
249.0476, 1509.636
250.9761, 1619.687
252.9046, 1754.644
254.8330, 1902.392
256.7615, 2102.353
258.6899, 2344.067
260.6184, 2639.080
262.5469, 3048.421
264.4753, 3488.512
266.4038, 4099.887
268.3323, 4991.733
270.2607, 6111.619
272.1892, 7558.993
274.1177, 9722.149
276.0461, 12479.91
277.9746, 14486.87
279.9031, 15977.36
281.8315, 16645.42
283.7600, 15981.45
285.6885, 13694.12
287.6169, 11276.37
289.5454, 9018.992
291.4739, 6893.787
293.4023, 5232.091
295.3308, 4129.865
297.2593, 3366.031
299.1877, 2784.735
301.1162, 2413.189
303.0447, 2135.082
304.9731, 1924.199
306.9016, 1784.676
308.8301, 1666.915
310.7585, 1578.755
312.6870, 1507.374
314.6155, 1441.502
316.5439, 1380.083
318.4724, 1328.305
320.4009, 1288.716
322.3293, 1262.011
324.2578, 1236.456
326.1863, 1209.875
328.1147, 1186.206
330.0432, 1167.624
331.9717, 1156.497
333.9002, 1146.410
335.8286, 1135.131
337.7571, 1123.059
339.6856, 1114.226
341.6140, 1109.459
343.5425, 1107.349
345.4710, 1107.040
347.3994, 1110.699
349.3279, 1112.404
351.2564, 1109.597
353.1848, 1103.533
355.1133, 1100.925
357.0418, 1105.906
358.9702, 1110.839
360.8987, 1111.338
362.8272, 1103.435
364.7556, 1097.074
366.6841, 1091.725
368.6126, 1088.541
370.5410, 1089.660
372.4695, 1098.846
374.3980, 1108.529
376.3264, 1115.369
378.2549, 1118.858
380.1834, 1119.839
382.1118, 1116.643
384.0403, 1111.141
385.9688, 1106.632
387.8972, 1102.773
389.8257, 1100.399
391.7542, 1100.064
393.6826, 1102.956
395.6111, 1104.513
397.5396, 1104.064
399.4680, 1102.753
401.3965, 1101.954
403.3250, 1101.945
405.2534, 1102.705
407.1819, 1104.325
409.1104, 1107.033
411.0388, 1110.500
412.9673, 1114.592
414.8958, 1119.478
416.8242, 1124.638
418.7527, 1128.649
420.6812, 1135.469
422.6096, 1148.099
424.5381, 1165.027
426.4666, 1176.235
428.3951, 1179.237
430.3235, 1178.380
432.2520, 1174.947
434.1805, 1167.182
436.1089, 1163.529
438.0374, 1168.592
439.9659, 1178.139
441.8943, 1182.135
443.8228, 1176.303
445.7513, 1171.728
447.6797, 1173.400
449.6082, 1181.807
451.5367, 1190.073
453.4651, 1200.466
455.3936, 1209.483
457.3221, 1211.729
459.2505, 1203.440
461.1790, 1198.241
463.1075, 1201.515
465.0359, 1211.651
466.9644, 1221.087
468.8929, 1226.369
470.8213, 1232.905
472.7498, 1245.105
474.6783, 1264.218
476.6067, 1280.053
478.5352, 1288.131
480.4637, 1292.058
482.3921, 1297.005
484.3206, 1305.230
486.2491, 1312.383
488.1775, 1317.737
490.1060, 1321.250
492.0345, 1322.937
493.9629, 1320.470
495.8914, 1318.098
497.8199, 1318.964
499.7483, 1326.663
501.6768, 1332.697
503.6053, 1334.018
505.5337, 1333.576
507.4622, 1338.425
509.3907, 1352.410
511.3191, 1366.282
513.2476, 1376.543
515.1760, 1382.306
517.1045, 1386.361
519.0330, 1385.809
520.9614, 1384.939
522.8899, 1388.533
524.8184, 1398.144
526.7468, 1406.414
528.6753, 1408.565
530.6038, 1407.162
532.5322, 1412.285
534.4607, 1429.712
536.3892, 1447.884
538.3176, 1463.453
540.2461, 1476.499
542.1746, 1486.186
544.1030, 1488.621
546.0315, 1489.613
547.9600, 1493.786
549.8884, 1507.151
551.8169, 1516.760
553.7454, 1518.223
555.6738, 1515.567
557.6023, 1518.875
559.5308, 1532.589
561.4592, 1546.396
563.3877, 1555.881
565.3162, 1559.675
567.2446, 1564.896
569.1731, 1573.320
571.1016, 1581.838
573.0300, 1586.655
574.9585, 1586.095
576.8870, 1589.737
578.8154, 1603.825
580.7440, 1623.353
582.6724, 1638.281
584.6009, 1644.121
586.5294, 1649.831
588.4578, 1657.575
590.3863, 1666.953
592.3148, 1675.870
594.2432, 1684.065
596.1717, 1691.962
598.1002, 1699.792
600.0286, 1707.497
601.9571, 1715.861
603.8856, 1727.893
605.8140, 1739.485
607.7425, 1743.875
609.6710, 1736.203
611.5994, 1734.537
613.5279, 1747.159
615.4564, 1770.653
617.3848, 1791.575
619.3133, 1811.183
621.2418, 1827.065
623.1702, 1836.065
625.0987, 1838.690
627.0272, 1843.489
628.9556, 1853.104
630.8841, 1863.554
632.8126, 1871.617
634.7410, 1873.040
636.6695, 1880.444
638.5980, 1902.223
640.5264, 1927.331
642.4549, 1939.006
644.3834, 1931.859
646.3118, 1927.144
648.2403, 1933.713
650.1688, 1948.868
652.0972, 1961.958
654.0257, 1973.166
655.9542, 1982.222
657.8826, 1987.288
659.8111, 1988.472
661.7396, 1992.143
663.6680, 1998.132
665.5965, 2007.281
667.5250, 2020.480
669.4534, 2039.467
671.3819, 2056.793
673.3104, 2072.672
675.2388, 2086.588
677.1673, 2096.606
679.0958, 2100.453
681.0242, 2107.471
682.9527, 2120.568
684.8812, 2138.187
686.8096, 2158.164
688.7381, 2180.677
690.6666, 2205.614
692.5950, 2223.980
694.5235, 2241.265
696.4520, 2286.010
698.3804, 2314.252
700.3089, 2419.747
702.2374, 2621.338
704.1658, 2913.979
706.0943, 3369.842
708.0228, 4345.589
709.9512, 5218.344
711.8797, 5634.641
713.8082, 5483.270
715.7366, 5155.470
717.6651, 4457.904
719.5936, 3707.954
721.5220, 3160.841
723.4505, 2851.163
725.3790, 2638.352
727.3074, 2517.193
729.2359, 2460.033
731.1644, 2429.419
733.0928, 2441.732
735.0213, 2455.591
736.9498, 2466.442
738.8782, 2474.241
740.8067, 2479.108
742.7352, 2479.495
744.6636, 2480.102
746.5921, 2482.253
748.5206, 2486.164
750.4490, 2492.216
752.3775, 2501.849
754.3060, 2512.090
756.2344, 2521.119
758.1629, 2529.056
760.0914, 2538.313
762.0198, 2549.642
763.9483, 2561.305
765.8768, 2572.650
767.8052, 2583.934
769.7337, 2594.658
771.6622, 2607.772
773.5906, 2619.197
775.5191, 2624.087
777.4476, 2621.891
779.3760, 2625.566
781.3045, 2638.687
783.2330, 2658.056
785.1614, 2681.697
787.0899, 2712.089
789.0184, 2739.270
790.9468, 2763.237
792.8753, 2782.542
794.8038, 2792.846
796.7322, 2788.909
798.6607, 2790.974
800.5892, 2808.388
802.5176, 2832.241
804.4461, 2851.858
806.3746, 2866.701
808.3030, 2878.432
810.2315, 2886.164
812.1600, 2892.117
814.0884, 2900.792
816.0169, 2913.553
817.9454, 2927.823
819.8738, 2943.924
821.8023, 2961.345
823.7308, 2978.610
825.6592, 2994.029
827.5877, 3011.254
829.5162, 3032.242
831.4446, 3055.102
833.3731, 3073.519
835.3016, 3085.396
837.2300, 3095.069
839.1585, 3101.747
841.0870, 3107.577
843.0154, 3118.245
844.9439, 3137.770
846.8724, 3157.811
848.8008, 3175.671
850.7293, 3191.771
852.6578, 3207.846
854.5862, 3222.299
856.5147, 3237.061
858.4432, 3249.418
860.3716, 3260.710
862.3001, 3280.936
864.2286, 3318.523
866.1570, 3352.984
868.0855, 3371.842
870.0140, 3379.947
871.9424, 3396.739
873.8709, 3434.907
875.7994, 3469.704
877.7278, 3489.553
879.6563, 3495.770
881.5848, 3510.049
883.5132, 3540.263
885.4417, 3568.030
887.3702, 3583.496
889.2986, 3590.643
891.2271, 3603.661
893.1556, 3629.510
895.0840, 3653.934
897.0125, 3671.659
898.9410, 3683.618
900.8694, 3696.719
902.7979, 3715.346
904.7264, 3730.307
906.6548, 3734.420
908.5833, 3731.511
910.5118, 3738.230
912.4402, 3759.297
914.3687, 3783.002
916.2972, 3806.131
918.2256, 3828.862
920.1541, 3850.588
922.0826, 3866.880
924.0110, 3887.948
925.9395, 3918.219
927.8680, 3954.852
929.7964, 3987.566
931.7249, 4010.674
933.6534, 4037.319
935.5818, 4076.259
937.5103, 4120.241
939.4388, 4156.430
941.3672, 4185.723
943.2957, 4204.658
945.2242, 4203.078
947.1526, 4193.061
949.0811, 4198.885
951.0096, 4233.001
952.9380, 4266.634
954.8665, 4299.130
956.7950, 4328.216
958.7234, 4349.992
960.6519, 4362.621
962.5804, 4376.275
964.5089, 4398.175
966.4373, 4421.485
968.3658, 4437.500
970.2943, 4441.530
972.2227, 4454.602
974.1512, 4485.519
976.0797, 4521.844
978.0081, 4551.371
979.9366, 4569.592
981.8651, 4591.097
983.7935, 4616.018
985.7220, 4642.940
987.6505, 4671.646
989.5789, 4701.750
991.5074, 4729.927
993.4359, 4757.058
995.3643, 4781.321
997.2928, 4801.932
999.2213, 4819.271
1001.150, 4836.898
1003.078, 4852.252
1005.007, 4871.957
1006.935, 4897.056
1008.864, 4928.348
1010.792, 4969.949
1012.721, 5033.136
1014.649, 5087.358
1016.577, 5112.057
1018.506, 5118.806
1020.434, 5133.393
1022.363, 5164.308
1024.291, 5189.434
1026.220, 5196.886
1028.148, 5198.544
1030.077, 5215.004
1032.005, 5265.340
1033.934, 5304.560
1035.862, 5321.607
1037.791, 5330.912
1039.719, 5348.348
1041.647, 5374.008
1043.576, 5399.097
1045.504, 5417.853
1047.433, 5438.938
1049.361, 5468.704
1051.290, 5507.784
1053.218, 5547.252
1055.147, 5565.797
1057.075, 5605.083
1059.004, 5683.739
1060.932, 5800.890
1062.861, 5937.417
1064.789, 6072.688
1066.718, 6248.420
1068.646, 6295.440
1070.574, 6433.387
1072.503, 6805.696
1074.432, 6735.242
1076.360, 8781.112
1078.288, 14161.50
1080.217, 21952.56
1082.145, 32591.13
1084.074, 50874.53
1086.002, 59237.18
1087.931, 50467.71
1089.859, 36368.63
1091.788, 24897.77
1093.716, 16307.92
1095.645, 10237.49
1097.573, 8052.239
1099.502, 7132.123
1101.430, 6648.456
1103.359, 6506.981
1105.287, 6413.115
1107.215, 6365.302
1109.144, 6337.412
1111.072, 6325.313
1113.001, 6326.239
1114.929, 6334.830
1116.858, 6354.625
1118.786, 6375.284
1120.715, 6388.430
1122.643, 6404.155
1124.572, 6433.999
1126.500, 6481.611
1128.429, 6522.463
1130.357, 6553.612
1132.286, 6578.539
1134.214, 6593.905
1136.142, 6603.854
1138.071, 6626.298
1139.999, 6672.997
1141.928, 6715.185
1143.856, 6738.573
1145.785, 6752.359
1147.713, 6775.013
1149.642, 6815.023
1151.570, 6847.128
1153.499, 6856.431
1155.427, 6864.694
1157.356, 6893.155
1159.284, 6947.827
1161.213, 6995.805
1163.141, 7033.208
1165.069, 7068.302
1166.998, 7106.596
1168.926, 7146.063
1170.855, 7178.100
1172.783, 7194.637
1174.712, 7220.123
1176.640, 7270.728
1178.569, 7330.156
1180.497, 7377.502
1182.426, 7407.098
1184.354, 7441.330
1186.283, 7500.004
1188.211, 7549.133
1190.140, 7558.559
1192.068, 7526.721
1193.996, 7527.113
1195.925, 7583.042
1197.853, 7641.732
1199.782, 7695.153
1201.710, 7740.871
1203.639, 7770.699
1205.567, 7778.185
1207.496, 7799.934
1209.424, 7854.459
1211.353, 7917.877
1213.281, 7970.543
1215.210, 8011.497
1217.138, 8058.419
1219.067, 8117.255
1220.995, 8172.309
1222.923, 8214.667
1224.852, 8248.998
1226.780, 8288.581
1228.709, 8342.037
1230.637, 8391.823
1232.566, 8445.748
1234.494, 8492.700
1236.423, 8519.808
1238.351, 8526.047
1240.280, 8538.225
1242.208, 8552.860
1244.137, 8577.896
1246.065, 8622.984
1247.994, 8678.640
1249.922, 8727.026
1251.850, 8765.742
1253.779, 8806.435
1255.707, 8848.459
1257.636, 8896.557
1259.564, 8957.303
1261.493, 9030.951
1263.421, 9092.904
1265.350, 9139.272
1267.278, 9174.683
1269.207, 9192.285
1271.135, 9202.430
1273.064, 9225.182
1274.992, 9272.383
1276.921, 9315.034
1278.849, 9350.768
1280.777, 9385.993
1282.706, 9419.862
1284.634, 9454.594
1286.563, 9505.422
1288.491, 9577.678
1290.420, 9651.338
1292.348, 9727.794
1294.277, 9794.188
1296.205, 9830.778
1298.134, 9834.457
1300.062, 9852.586
1301.991, 9910.365
1303.919, 9961.692
1305.848, 9980.130
1307.776, 9977.698
1309.704, 9994.015
1311.633, 10043.09
1313.561, 10087.04
1315.490, 10120.06
1317.418, 10149.68
1319.347, 10180.72
1321.275, 10213.73
1323.204, 10250.34
1325.132, 10293.23
1327.061, 10336.88
1328.989, 10372.52
1330.918, 10410.32
1332.846, 10470.96
1334.775, 10556.60
1336.703, 10617.37
1338.631, 10622.15
1340.560, 10627.05
1342.488, 10664.35
1344.417, 10721.33
1346.345, 10774.89
1348.274, 10826.78
1350.202, 10873.25
1352.131, 10918.34
1354.059, 10956.50
1355.988, 10977.75
1357.916, 10985.04
1359.845, 11012.02
1361.773, 11066.27
1363.702, 11127.10
1365.630, 11196.25
1367.558, 11263.57
1369.487, 11317.24
1371.415, 11353.46
1373.344, 11392.34
1375.272, 11421.44
1377.201, 11466.76
1379.129, 11557.47
1381.058, 11660.03
1382.986, 11715.63
1384.915, 11710.65
1386.843, 11725.07
1388.772, 11777.96
1390.700, 11836.37
1392.629, 11885.34
1394.557, 11929.07
1396.485, 11978.87
1398.414, 12036.86
1400.342, 12082.14
1402.271, 12094.48
1404.199, 12110.75
1406.128, 12161.20
1408.056, 12234.80
1409.985, 12298.70
1411.913, 12349.08
1413.842, 12406.72
1415.770, 12476.22
1417.699, 12555.37
1419.627, 12639.05
1421.556, 12727.22
1423.484, 12830.50
1425.412, 12931.72
1427.341, 13080.16
1429.269, 13299.91
1431.198, 13555.39
1433.126, 13868.60
1435.055, 14240.07
1436.983, 14419.52
1438.912, 14280.25
1440.840, 14111.94
1442.769, 13897.07
1444.697, 13705.12
1446.626, 13606.05
1448.554, 13602.79
1450.483, 13615.62
1452.411, 13660.49
1454.339, 13702.72
1456.268, 13731.39
1458.196, 13761.57
1460.125, 13812.65
1462.053, 13884.30
1463.982, 13943.37
1465.910, 13975.87
1467.839, 14018.50
1469.767, 14087.08
1471.696, 14166.92
1473.624, 14247.87
1475.553, 14328.51
1477.481, 14395.22
1479.410, 14439.24
1481.338, 14483.26
1483.266, 14535.67
1485.195, 14589.90
1487.123, 14643.01
1489.052, 14694.67
1490.980, 14737.23
1492.909, 14761.58
1494.837, 14800.27
1496.766, 14879.91
1498.694, 14967.71
1500.623, 15036.46
1502.551, 15087.03
1504.480, 15132.49
1506.408, 15164.36
1508.337, 15208.65
1510.265, 15285.12
1512.193, 15364.67
1514.122, 15422.37
1516.050, 15460.10
1517.979, 15511.09
1519.907, 15583.60
1521.836, 15654.71
1523.764, 15716.42
1525.693, 15781.30
1527.621, 15866.66
1529.550, 15966.84
1531.478, 16042.17
1533.407, 16067.03
1535.335, 16110.27
1537.264, 16179.24
1539.192, 16258.92
1541.120, 16347.68
1543.049, 16437.86
1544.977, 16509.27
1546.906, 16548.73
1548.834, 16595.54
1550.763, 16652.68
1552.691, 16718.28
1554.620, 16799.48
1556.548, 16888.37
1558.477, 16971.40
1560.405, 17050.77
1562.334, 17113.76
1564.262, 17142.59
1566.191, 17176.71
1568.119, 17225.53
1570.047, 17287.32
1571.976, 17365.28
1573.904, 17459.79
1575.833, 17539.22
1577.761, 17583.37
1579.690, 17642.21
1581.618, 17742.72
1583.547, 17844.94
1585.475, 17917.26
1587.404, 17962.19
1589.332, 17995.90
1591.261, 18013.88
1593.189, 18043.83
1595.118, 18110.32
1597.046, 18175.32
1598.974, 18214.55
1600.903, 18239.81
1602.831, 18271.25
1604.760, 18307.25
1606.688, 18359.57
1608.617, 18439.80
1610.545, 18518.99
1612.474, 18583.27
1614.402, 18642.11
1616.331, 18704.66
1618.259, 18772.11
1620.188, 18852.18
1622.116, 18953.56
1624.045, 19046.58
1625.973, 19111.25
1627.901, 19171.57
1629.830, 19240.86
1631.758, 19316.24
1633.687, 19394.24
1635.615, 19474.98
1637.544, 19549.98
1639.472, 19627.87
1641.401, 19688.52
1643.329, 19707.44
1645.258, 19717.25
1647.186, 19763.00
1649.115, 19841.36
1651.043, 19901.06
1652.972, 19928.30
1654.900, 19958.59
1656.828, 20007.09
1658.757, 20054.95
1660.685, 20082.04
1662.614, 20100.71
1664.542, 20140.89
1666.471, 20206.86
1668.399, 20287.85
1670.328, 20399.23
1672.256, 20501.08
1674.185, 20564.12
1676.113, 20615.15
1678.042, 20676.96
1679.970, 20748.49
1681.899, 20839.44
1683.827, 20956.32
1685.755, 21063.54
1687.684, 21143.81
1689.612, 21220.29
1691.541, 21317.51
1693.469, 21415.49
1695.398, 21472.29
1697.326, 21486.63
1699.255, 21516.22
1701.183, 21567.92
1703.112, 21632.72
1705.040, 21733.25
1706.969, 21825.44
1708.897, 21859.46
1710.826, 21863.21
1712.754, 21913.28
1714.682, 22019.22
1716.611, 22119.49
1718.539, 22202.95
1720.468, 22278.45
1722.396, 22326.38
1724.325, 22381.29
1726.253, 22494.99
1728.182, 22651.47
1730.110, 22768.80
1732.039, 22833.99
1733.967, 22905.82
1735.896, 22946.54
1737.824, 23056.82
1739.753, 23270.17
1741.681, 23584.14
1743.609, 24081.50
1745.538, 24732.73
1747.466, 25132.22
1749.395, 25232.37
1751.323, 25194.02
1753.252, 24928.54
1755.180, 24665.85
1757.109, 24501.79
1759.037, 24414.33
1760.966, 24373.00
1762.894, 24372.82
1764.823, 24409.65
1766.751, 24505.97
1768.680, 24586.89
1770.608, 24649.53
1772.536, 24694.66
1774.465, 24722.96
1776.393, 24743.97
1778.322, 24761.78
1780.250, 24776.58
1782.179, 24834.83
1784.107, 24971.85
1786.036, 25090.01
1787.964, 25168.99
1789.893, 25236.07
1791.821, 25291.20
1793.750, 25350.88
1795.678, 25450.83
1797.607, 25595.38
1799.535, 25701.66
1801.464, 25745.02
1803.392, 25797.44
1805.320, 25849.62
1807.249, 25924.34
1809.177, 26053.86
1811.106, 26192.63
1813.034, 26280.93
1814.963, 26321.90
1816.891, 26372.38
1818.820, 26437.04
1820.748, 26509.33
1822.677, 26598.31
1824.605, 26684.10
1826.534, 26751.04
1828.462, 26815.54
1830.391, 26890.39
1832.319, 26974.39
1834.247, 27067.46
1836.176, 27169.88
1838.104, 27275.40
1840.033, 27385.06
1841.961, 27493.81
1843.890, 27605.53
1845.818, 27707.54
1847.747, 27785.86
1849.675, 27846.87
1851.604, 27905.19
1853.532, 27962.19
1855.461, 28003.64
1857.389, 28008.50
1859.318, 28060.99
1861.246, 28216.06
1863.174, 28393.15
1865.103, 28569.31
1867.031, 28725.06
1868.960, 28816.59
1870.888, 28845.64
1872.817, 28908.41
1874.745, 29020.06
1876.674, 29117.81
1878.602, 29202.67
1880.531, 29269.03
1882.459, 29312.51
1884.388, 29349.04
1886.316, 29396.69
1888.245, 29453.15
1890.173, 29496.13
1892.101, 29510.55
1894.030, 29586.87
1895.958, 29766.26
1897.887, 29929.12
1899.815, 30036.74
1901.744, 30133.07
1903.672, 30229.10
1905.601, 30320.83
1907.529, 30406.61
1909.458, 30484.31
1911.386, 30556.11
1913.315, 30627.72
1915.243, 30672.55
1917.172, 30682.30
1919.100, 30692.25
1921.028, 30715.25
1922.957, 30750.95
1924.885, 30798.99
1926.814, 30860.92
1928.742, 30939.43
1930.671, 31032.42
1932.599, 31129.24
1934.528, 31229.94
1936.456, 31317.33
1938.385, 31380.60
1940.313, 31430.55
1942.242, 31456.79
1944.170, 31484.02
1946.099, 31538.11
1948.027, 31614.06
1949.955, 31694.45
1951.884, 31783.82
1953.812, 31906.94
1955.741, 32090.05
1957.669, 32252.61
1959.598, 32345.79
1961.526, 32449.08
1963.455, 32602.02
1965.383, 32732.35
1967.312, 32770.77
1969.240, 32751.32
1971.169, 32758.18
1973.097, 32794.95
1975.026, 32813.66
1976.954, 32821.35
1978.882, 32828.61
1980.811, 32825.64
1982.739, 32863.86
1984.668, 32968.33
1986.596, 33109.65
1988.525, 33282.45
1990.453, 33455.27
1992.382, 33561.75
1994.310, 33601.19
1996.239, 33690.43
1998.167, 33865.51
2000.096, 33991.61
2002.024, 34046.01
2003.953, 34090.66
2005.881, 34146.68
2007.809, 34200.03
2009.738, 34222.56
2011.666, 34250.19
2013.595, 34332.26
2015.523, 34460.42
2017.452, 34609.40
2019.380, 34785.16
2021.309, 34883.51
2023.237, 34870.07
2025.166, 34864.85
2027.094, 34888.16
2029.023, 34956.91
2030.951, 35121.81
2032.880, 35301.86
2034.808, 35399.14
2036.736, 35459.26
2038.665, 35594.79
2040.593, 35799.84
2042.522, 35954.06
2044.450, 36024.27
2046.379, 36107.81
2048.307, 36241.52
2050.236, 36348.30
2052.164, 36407.70
2054.093, 36455.54
2056.021, 36510.88
2057.949, 36574.55
2059.878, 36640.40
2061.807, 36712.49
2063.735, 36815.79
2065.664, 36948.27
2067.592, 37048.94
2069.521, 37099.66
2071.449, 37181.91
2073.377, 37317.19
2075.306, 37478.15
2077.234, 37705.43
2079.163, 37893.00
2081.091, 37914.86
2083.020, 37882.38
2084.948, 37960.88
2086.877, 38116.06
2088.805, 38214.38
2090.734, 38252.31
2092.662, 38273.31
2094.591, 38268.54
2096.519, 38299.14
2098.448, 38401.12
2100.376, 38514.38
2102.304, 38621.02
2104.233, 38733.93
2106.161, 38833.61
2108.090, 38946.68
2110.018, 39117.42
2111.947, 39312.96
2113.875, 39452.71
2115.804, 39534.24
2117.732, 39629.95
2119.661, 39736.63
2121.589, 39901.05
2123.518, 40211.49
2125.446, 40469.51
2127.375, 40609.11
2129.303, 40724.88
2131.231, 40848.24
2133.160, 40975.95
2135.088, 41123.41
2137.017, 41261.32
2138.945, 41326.90
2140.874, 41333.89
2142.802, 41349.09
2144.731, 41383.04
2146.659, 41411.82
2148.588, 41424.58
2150.516, 41478.68
2152.445, 41634.92
2154.373, 41755.20
2156.302, 41739.95
2158.230, 41714.55
2160.158, 41770.24
2162.087, 41843.31
2164.015, 41867.27
2165.944, 41858.66
2167.872, 41845.05
2169.801, 41840.14
2171.729, 41909.60
2173.658, 42067.79
2175.586, 42226.86
2177.515, 42363.14
2179.443, 42504.46
2181.372, 42638.17
2183.300, 42762.11
2185.229, 42861.34
2187.157, 42948.96
2189.085, 43059.98
2191.014, 43159.51
2192.942, 43210.10
2194.871, 43228.98
2196.799, 43230.13
2198.728, 43218.83
2200.656, 43269.42
2202.585, 43386.14
2204.513, 43432.39
2206.442, 43363.82
2208.370, 43325.86
2210.299, 43357.38
2212.227, 43411.94
2214.156, 43522.84
2216.084, 43602.83
2218.012, 43572.57
2219.941, 43533.37
2221.869, 43579.13
2223.798, 43676.22
2225.726, 43766.77
2227.655, 43855.16
2229.583, 43977.07
2231.512, 44130.05
2233.440, 44248.12
2235.369, 44323.00
2237.297, 44387.44
2239.226, 44426.68
2241.154, 44509.32
2243.083, 44693.61
2245.011, 44854.13
2246.939, 44928.63
2248.868, 44984.30
2250.796, 45073.69
2252.725, 45146.13
2254.653, 45152.96
2256.582, 45116.09
2258.510, 45045.78
2260.439, 44973.63
2262.367, 45021.86
2264.296, 45180.34
2266.224, 45278.89
2268.153, 45299.37
2270.081, 45347.95
2272.010, 45438.91
2273.938, 45530.77
2275.866, 45617.50
2277.795, 45685.79
2279.723, 45721.00
2281.652, 45749.10
2283.580, 45799.52
2285.509, 45838.58
2287.437, 45819.60
2289.366, 45809.35
2291.294, 45876.26
2293.223, 46009.68
2295.151, 46211.82
2297.080, 46457.41
2299.008, 46614.75
2300.937, 46665.70
2302.865, 46749.32
2304.793, 46883.23
2306.722, 46974.16
2308.650, 47004.49
2310.579, 47045.14
2312.507, 47123.46
2314.436, 47196.04
2316.364, 47241.75
2318.293, 47302.60
2320.221, 47407.19
2322.150, 47518.91
2324.078, 47600.17
2326.007, 47680.51
2327.935, 47806.50
2329.864, 47940.74
2331.792, 48010.77
2333.720, 48037.98
2335.649, 48108.83
2337.577, 48213.40
2339.506, 48268.71
2341.434, 48273.24
2343.363, 48291.66
2345.291, 48334.63
2347.220, 48379.26
2349.148, 48433.57
2351.077, 48478.46
2353.005, 48478.04
2354.934, 48521.88
2356.862, 48656.54
2358.791, 48792.41
2360.719, 48902.51
2362.647, 48982.66
2364.576, 48997.90
2366.504, 49011.98
2368.433, 49094.80
2370.361, 49208.50
2372.290, 49319.21
2374.218, 49419.08
2376.147, 49470.68
2378.075, 49489.52
2380.004, 49551.37
2381.932, 49650.44
2383.861, 49723.87
2385.789, 49764.68
2387.718, 49822.35
2389.646, 49894.50
2391.574, 49999.00
2393.503, 50175.19
2395.431, 50310.91
2397.360, 50378.70
2399.288, 50432.97
2401.217, 50468.52
2403.145, 50523.56
2405.074, 50639.13
2407.002, 50743.78
2408.931, 50782.86
2410.859, 50820.39
2412.788, 50906.91
2414.716, 51009.99
2416.645, 51084.59
2418.573, 51155.80
2420.501, 51267.38
2422.430, 51398.11
2424.358, 51514.79
2426.287, 51610.02
2428.215, 51658.66
2430.144, 51667.87
2432.072, 51664.81
2434.001, 51652.12
2435.929, 51670.25
2437.858, 51719.84
2439.786, 51802.61
2441.715, 51938.13
2443.643, 52022.81
2445.572, 52026.79
2447.500, 52045.11
2449.428, 52126.50
2451.357, 52160.14
2453.285, 52062.02
2455.214, 52005.61
2457.142, 52056.80
2459.071, 52158.79
2460.999, 52317.10
2462.928, 52469.43
2464.856, 52565.21
2466.785, 52640.80
2468.713, 52704.93
2470.642, 52773.50
2472.570, 52881.52
2474.499, 52993.64
2476.427, 53058.37
2478.355, 53097.16
2480.284, 53150.61
2482.212, 53218.86
2484.141, 53275.44
2486.069, 53336.78
2487.998, 53479.82
2489.926, 53687.57
2491.855, 53847.14
2493.783, 53941.86
2495.712, 54016.90
2497.640, 54061.96
2499.569, 54091.19
2501.497, 54108.99
2503.426, 54096.57
2505.354, 54051.16
2507.282, 54051.86
2509.211, 54142.36
2511.139, 54223.71
2513.068, 54285.73
2514.996, 54328.98
2516.925, 54286.41
2518.853, 54321.86
2520.782, 54497.79
2522.710, 54688.07
2524.639, 54864.48
2526.567, 54994.00
2528.496, 55047.45
2530.424, 55061.51
2532.353, 55046.45
2534.281, 55028.15
2536.209, 55049.52
2538.138, 55068.91
2540.066, 55020.32
2541.995, 54985.58
2543.923, 55074.04
2545.852, 55195.36
2547.780, 55223.87
2549.709, 55223.04
2551.637, 55292.99
2553.566, 55407.75
2555.494, 55524.80
2557.423, 55636.65
2559.351, 55726.53
2561.280, 55792.71
2563.208, 55830.97
2565.136, 55846.65
2567.065, 55890.68
2568.993, 55961.59
2570.922, 55962.43
2572.850, 55892.25
2574.779, 55944.08
2576.707, 56115.81
2578.636, 56251.60
2580.564, 56340.92
2582.493, 56369.94
2584.421, 56312.06
2586.350, 56287.21
2588.278, 56298.48
2590.207, 56364.95
2592.135, 56516.77
2594.063, 56594.39
2595.992, 56553.45
2597.920, 56577.22
2599.849, 56732.21
2601.777, 56833.18
2603.706, 56799.21
2605.634, 56771.15
2607.563, 56774.26
2609.491, 56749.15
2611.420, 56689.75
2613.348, 56633.33
2615.277, 56598.18
2617.205, 56595.95
2619.134, 56664.73
2621.062, 56727.70
2622.990, 56708.90
2624.919, 56749.27
2626.847, 56915.27
2628.776, 57066.96
2630.704, 57110.41
2632.633, 57174.29
2634.561, 57359.75
2636.490, 57531.54
2638.418, 57595.90
2640.347, 57671.75
2642.275, 57827.54
2644.204, 57981.26
2646.132, 58063.53
2648.061, 58133.05
2649.989, 58244.27
2651.917, 58329.99
2653.846, 58321.54
2655.774, 58314.52
2657.703, 58431.65
2659.631, 58535.04
2661.560, 58488.53
2663.488, 58436.64
2665.417, 58489.38
2667.345, 58590.81
2669.274, 58719.13
2671.202, 58832.29
2673.131, 58881.23
2675.059, 58908.07
2676.988, 58962.84
2678.916, 59009.73
2680.844, 58964.27
2682.773, 58834.46
2684.701, 59010.01
2686.630, 59120.01
2688.558, 59167.96
2690.487, 58968.07
2692.415, 59088.21
2694.344, 59080.11
2696.272, 59066.73
2698.201, 59231.93
2700.129, 59068.07
2702.058, 59230.45
2703.986, 59262.59
2705.915, 59354.34
2707.843, 59317.02
2709.771, 59319.57
2711.700, 59451.22
2713.628, 59511.38
2715.557, 59459.22
2717.485, 59554.75
2719.414, 59386.40
2721.342, 59449.60
2723.271, 59612.73
2725.199, 59567.04
2727.128, 59664.94
2729.056, 59708.15
2730.985, 59502.88
2732.913, 59729.75
2734.842, 59769.74
2736.770, 59617.82
2738.698, 59829.88
2740.627, 59704.42
2742.555, 59699.43
2744.484, 59785.12
2746.412, 59776.29
2748.341, 59916.48
2750.269, 59913.09
2752.198, 59896.90
2754.126, 59936.66
2756.055, 59817.83
2757.983, 59968.70
2759.912, 60046.82
2761.840, 59999.23
2763.769, 59933.52
2765.697, 59942.38
2767.625, 59989.62
2769.554, 60047.19
2771.482, 60114.80
2773.411, 60212.43
2775.339, 60292.25
2777.268, 60289.41
2779.196, 60282.70
2781.125, 60380.45
2783.053, 60444.52
2784.982, 60318.77
2786.910, 60193.25
2788.839, 60229.39
2790.767, 60308.35
2792.696, 60102.98
2794.624, 60273.30
2796.552, 60378.05
2798.481, 60420.78
2800.409, 60215.65
2802.338, 60330.57
2804.266, 60317.23
2806.195, 60298.64
2808.123, 60458.60
2810.052, 60289.52
2811.980, 60446.65
2813.909, 60473.57
2815.837, 60560.08
2817.766, 60517.55
2819.694, 60514.87
2821.623, 60641.29
2823.551, 60696.22
2825.479, 60638.82
2827.408, 60700.70
2829.336, 60731.57
2831.265, 60797.31
2833.193, 60851.46
2835.122, 60861.68
2837.050, 60889.31
2838.979, 60949.73
2840.907, 60999.65
2842.836, 61047.41
2844.764, 61032.47
2846.693, 60948.90
2848.621, 60868.75
2850.550, 60786.88
2852.478, 60824.61
2854.406, 61000.95
2856.335, 61069.63
2858.263, 60998.27
2860.192, 60995.22
2862.120, 61062.43
2864.049, 61132.79
2865.977, 61210.47
2867.906, 61107.67
2869.834, 60884.00
2871.763, 60856.49
2873.691, 60990.28
2875.620, 60993.86
2877.548, 60916.52
2879.477, 60964.95
2881.405, 61079.80
2883.333, 61102.05
2885.262, 61076.17
2887.190, 61105.46
2889.119, 61147.38
2891.047, 61128.51
2892.976, 61082.55
2894.904, 61040.62
2896.833, 61021.88
2898.761, 61113.43
2900.690, 61169.59
2902.618, 60999.44
2904.547, 60818.02
2906.475, 60766.55
2908.404, 60767.86
2910.332, 60816.32
2912.260, 60839.70
2914.189, 60769.60
2916.117, 60723.48
2918.046, 60756.58
2919.974, 60793.91
2921.903, 60806.98
2923.831, 60832.08
2925.760, 60847.13
2927.688, 60916.32
2929.617, 61046.41
2931.545, 61155.54
2933.474, 61225.92
2935.402, 61240.89
2937.331, 61195.90
2939.259, 61132.08
2941.188, 61062.54
2943.116, 60914.28
2945.044, 60708.22
2946.973, 60636.50
2948.901, 60695.30
2950.830, 60826.32
2952.758, 60996.88
2954.687, 61039.32
2956.615, 61006.67
2958.544, 60989.57
2960.472, 61007.62
2962.401, 61133.11
2964.329, 61269.01
2966.258, 61284.68
2968.186, 61239.53
2970.115, 61195.23
2972.043, 61117.84
2973.971, 60977.02
2975.900, 60837.64
2977.828, 60723.75
2979.757, 60683.13
2981.685, 60810.82
2983.614, 60901.80
2985.542, 60854.50
2987.471, 60807.96
2989.399, 60744.07
2991.328, 60782.46
2993.256, 61003.10
2995.185, 61073.90
2997.113, 60947.65
2999.042, 60889.02
3000.970, 60911.39
3002.898, 60912.77
3004.827, 60897.43
3006.755, 60861.72
3008.684, 60820.13
3010.612, 60819.55
3012.541, 60866.73
3014.469, 61030.07
3016.398, 61196.87
3018.326, 61167.85
3020.255, 61085.36
3022.183, 61157.27
3024.112, 61203.00
3026.040, 61050.70
3027.969, 60898.51
3029.897, 60884.14
3031.825, 60852.67
3033.754, 60748.74
3035.682, 60636.79
3037.611, 60516.62
3039.539, 60457.67
3041.468, 60482.99
3043.396, 60539.79
3045.325, 60624.70
3047.253, 60653.16
3049.182, 60602.00
3051.110, 60607.52
3053.039, 60657.14
3054.967, 60672.40
3056.896, 60655.40
3058.824, 60585.34
3060.752, 60502.11
3062.681, 60461.02
3064.609, 60453.88
3066.538, 60483.26
3068.466, 60499.16
3070.395, 60410.70
3072.323, 60362.50
3074.252, 60501.39
3076.180, 60606.40
3078.109, 60621.21
3080.037, 60586.58
3081.966, 60465.93
3083.894, 60276.56
3085.823, 60409.43
3087.751, 60476.74
3089.679, 60482.01
3091.608, 60239.42
3093.536, 60316.89
3095.465, 60266.09
3097.393, 60210.04
3099.322, 60332.54
3101.250, 60126.01
3103.179, 60245.69
3105.107, 60235.15
3107.036, 60284.21
3108.964, 60204.21
3110.893, 60164.07
3112.821, 60253.04
3114.750, 60270.51
3116.678, 60175.66
3118.606, 60228.52
3120.535, 60017.47
3122.463, 60038.00
3124.392, 60158.43
3126.320, 60070.07
3128.249, 60125.27
3130.177, 60125.80
3132.106, 59877.83
3134.034, 60062.02
3135.963, 60059.31
3137.891, 59864.71
3139.820, 60034.09
3141.748, 59865.95
3143.677, 59818.27
3145.605, 59861.27
3147.533, 59809.76
3149.462, 59907.25
3151.390, 59861.19
3153.319, 59802.30
3155.247, 59799.39
3157.176, 59637.85
3159.104, 59770.59
3161.033, 59702.31
3162.961, 59733.96
3164.890, 59788.25
3166.818, 59669.13
3168.747, 59733.59
3170.675, 59513.37
3172.604, 59531.35
3174.532, 59523.68
3176.460, 59668.29
3178.389, 59449.44
3180.317, 59460.81
3182.246, 59570.19
3184.174, 59542.43
3186.103, 59572.00
3188.031, 59431.82
3189.960, 59451.11
3191.888, 59426.45
3193.817, 59553.68
3195.745, 59561.00
3197.674, 59423.70
3199.602, 59287.01
3201.531, 59425.18
3203.459, 59302.83
3205.387, 59321.04
3207.316, 59194.08
3209.244, 59192.46
3211.173, 59188.84
3213.101, 59249.47
3215.030, 59115.29
3216.958, 59233.82
3218.887, 59206.28
3220.815, 59221.78
3222.744, 59232.48
3224.672, 59047.19
3226.601, 59022.57
3228.529, 59227.85
3230.458, 59082.52
3232.386, 59007.96
3234.314, 58983.70
3236.243, 59196.85
3238.171, 59189.34
3240.100, 59063.75
3242.028, 58930.40
3243.957, 58869.20
3245.885, 58938.82
3247.814, 58874.06
3249.742, 58639.21
3251.671, 58559.29
3253.599, 58596.65
3255.528, 58537.05
3257.456, 58438.74
3259.385, 58390.83
3261.313, 58370.29
3263.241, 58378.29
3265.170, 58364.62
3267.098, 58251.09
3269.027, 58220.63
3270.955, 58355.70
3272.884, 58380.18
3274.812, 58257.00
3276.741, 58161.23
3278.669, 58101.02
3280.598, 58086.51
3282.526, 58090.52
3284.455, 58061.71
3286.383, 58009.50
3288.312, 57899.38
3290.240, 57833.95
3292.168, 57874.79
3294.097, 57923.61
3296.025, 57966.87
3297.954, 57951.74
3299.882, 57873.86
3301.811, 57830.95
3303.739, 57819.60
3305.668, 57784.08
3307.596, 57723.79
3309.525, 57611.63
3311.453, 57503.67
3313.382, 57449.94
3315.310, 57423.74
3317.239, 57443.10
3319.167, 57397.73
3321.095, 57224.66
3323.024, 57119.21
3324.952, 57095.36
3326.881, 57100.93
3328.809, 57144.61
3330.738, 57291.41
3332.666, 57436.04
3334.595, 57355.79
3336.523, 57260.97
3338.452, 57314.92
3340.380, 57346.31
3342.309, 57291.43
3344.237, 57236.67
3346.166, 57198.30
3348.094, 57194.52
3350.022, 57221.09
3351.951, 57165.38
3353.879, 57070.00
3355.808, 57004.43
3357.736, 56949.59
3359.665, 56862.11
3361.593, 56815.98
3363.522, 56872.82
3365.450, 56900.92
3367.379, 56880.94
3369.307, 56839.60
3371.236, 56779.57
3373.164, 56692.33
3375.093, 56600.02
3377.021, 56571.82
3378.949, 56552.62
3380.878, 56495.96
3382.806, 56425.38
3384.735, 56333.55
3386.663, 56300.85
3388.592, 56356.86
3390.520, 56367.07
3392.449, 56323.39
3394.377, 56287.40
3396.306, 56242.00
3398.234, 56139.48
3400.163, 56038.47
3402.091, 56027.12
3404.020, 56003.48
3405.948, 55910.92
3407.876, 55835.41
3409.805, 55785.22
3411.733, 55765.80
3413.662, 55758.84
3415.590, 55659.61
3417.519, 55518.74
3419.447, 55438.05
3421.376, 55393.70
3423.304, 55387.13
3425.233, 55397.71
3427.161, 55437.87
3429.090, 55422.74
3431.018, 55325.95
3432.947, 55314.20
3434.875, 55364.78
3436.803, 55391.72
3438.732, 55405.97
3440.660, 55468.44
3442.589, 55453.10
3444.517, 55245.98
3446.446, 55114.96
3448.374, 55223.04
3450.303, 55188.91
3452.231, 55031.03
3454.160, 54951.11
3456.088, 54941.98
3458.017, 55026.51
3459.945, 55088.23
3461.874, 54999.90
3463.802, 54902.63
3465.730, 54855.39
3467.659, 54784.57
3469.587, 54687.48
3471.516, 54651.59
3473.444, 54639.80
3475.373, 54466.88
3477.301, 54257.53
3479.230, 54137.98
3481.158, 54061.30
3483.087, 54008.11
3485.015, 53987.62
3486.944, 54001.79
3488.872, 54012.29
3490.801, 54006.20
3492.729, 53916.43
3494.657, 53799.73
3496.586, 53733.61
3498.514, 53688.41
3500.443, 53697.56
3502.371, 53596.13
3504.300, 53279.12
3506.228, 53093.62
3508.157, 53030.76
3510.085, 52977.44
3512.014, 52974.16
3513.942, 53148.22
3515.871, 53294.70
3517.799, 53282.29
3519.728, 53210.75
3521.656, 53081.04
3523.584, 53033.16
3525.513, 53066.68
3527.441, 53105.63
3529.370, 53137.50
3531.298, 53133.43
3533.227, 53111.38
3535.155, 53088.72
3537.084, 53021.94
3539.012, 52901.79
3540.941, 52810.99
3542.869, 52755.59
3544.798, 52745.93
3546.726, 52743.84
3548.655, 52719.77
3550.583, 52641.49
3552.511, 52456.43
3554.440, 52319.54
3556.368, 52267.13
3558.297, 52202.86
3560.225, 52143.03
3562.154, 52212.96
3564.082, 52285.78
3566.011, 52180.50
3567.939, 52087.67
3569.868, 52080.27
3571.796, 52069.54
3573.725, 52042.82
3575.653, 52047.30
3577.582, 52044.07
3579.510, 51899.16
3581.438, 51762.73
3583.367, 51797.36
3585.295, 51806.79
3587.224, 51716.84
3589.152, 51654.32
3591.081, 51623.08
3593.009, 51599.73
3594.938, 51568.84
3596.866, 51499.21
3598.795, 51407.71
3600.723, 51268.97
3602.652, 51193.46
3604.580, 51207.57
3606.509, 51203.41
3608.437, 51175.76
3610.365, 51092.32
3612.294, 51002.76
3614.222, 50966.79
3616.151, 50905.21
3618.079, 50732.97
3620.008, 50697.54
3621.936, 50774.73
3623.865, 50684.01
3625.793, 50524.36
3627.722, 50443.79
3629.650, 50420.89
3631.579, 50500.14
3633.507, 50490.76
3635.436, 50370.04
3637.364, 50346.31
3639.292, 50369.67
3641.221, 50259.71
3643.149, 50135.21
3645.078, 50089.11
3647.006, 50050.91
3648.935, 49985.01
3650.863, 50060.96
3652.792, 50228.73
3654.720, 50157.38
3656.649, 50014.68
3658.577, 50017.00
3660.506, 49993.40
3662.434, 49871.52
3664.363, 49785.96
3666.291, 49748.66
3668.219, 49730.97
3670.148, 49694.50
3672.076, 49522.49
3674.005, 49401.19
3675.933, 49481.16
3677.862, 49480.93
3679.790, 49368.43
3681.719, 49255.70
3683.647, 49130.89
3685.576, 48920.00
3687.504, 48761.82
3689.433, 48818.99
3691.361, 48809.11
3693.290, 48690.64
3695.218, 48664.34
3697.146, 48686.52
3699.075, 48628.43
3701.003, 48549.41
3702.932, 48480.93
3704.860, 48452.93
3706.789, 48485.98
3708.717, 48420.11
3710.646, 48300.94
3712.574, 48249.26
3714.503, 48251.63
3716.431, 48333.11
3718.360, 48355.03
3720.288, 48275.57
3722.217, 48275.67
3724.145, 48312.80
3726.073, 48196.45
3728.002, 48065.75
3729.930, 48060.79
3731.859, 48021.57
3733.787, 47916.88
3735.716, 47865.02
3737.644, 47850.25
3739.573, 47825.62
3741.501, 47774.86
3743.430, 47678.80
3745.358, 47567.73
3747.287, 47447.55
3749.215, 47412.24
3751.144, 47413.48
3753.072, 47261.23
3755.000, 47118.60
3756.929, 47158.91
3758.857, 47088.95
3760.786, 46875.11
3762.714, 46856.27
3764.643, 46939.67
3766.571, 46867.82
3768.500, 46761.88
3770.428, 46678.50
3772.357, 46585.12
3774.285, 46475.87
3776.214, 46459.82
3778.142, 46465.79
3780.071, 46341.67
3781.999, 46220.22
3783.927, 46196.30
3785.856, 46122.70
3787.784, 46011.62
3789.713, 46043.23
3791.641, 46085.35
3793.570, 45901.45
3795.498, 45783.97
3797.427, 45884.60
3799.355, 45902.85
3801.284, 45843.84
3803.212, 45838.70
3805.141, 45808.95
3807.069, 45646.76
3808.998, 45563.49
3810.926, 45638.95
3812.854, 45570.51
3814.783, 45434.68
3816.711, 45470.75
3818.640, 45499.46
3820.568, 45372.81
3822.497, 45345.26
3824.425, 45439.40
3826.354, 45392.68
3828.282, 45257.54
3830.211, 45058.71
3832.139, 44926.61
3834.068, 44940.77
3835.996, 44878.79
3837.925, 44756.09
3839.853, 44728.66
3841.781, 44745.10
3843.710, 44811.87
3845.638, 44775.03
3847.567, 44594.94
3849.495, 44464.96
3851.424, 44384.61
3853.352, 44358.58
3855.281, 44337.13
3857.209, 44297.21
3859.138, 44263.50
3861.066, 44231.38
3862.995, 44109.16
3864.923, 44004.43
3866.852, 44036.21
3868.780, 44079.12
3870.708, 44113.06
3872.637, 44069.64
3874.565, 43964.28
3876.494, 43847.08
3878.422, 43764.61
3880.351, 43762.18
3882.279, 43758.18
3884.208, 43749.14
3886.136, 43644.34
3888.065, 43512.34
3889.993, 43406.86
3891.922, 43362.92
3893.850, 43406.54
3895.779, 43367.20
3897.707, 43285.64
3899.635, 43250.11
3901.564, 43200.52
3903.492, 43108.37
3905.421, 43130.40
3907.349, 43215.67
3909.278, 43190.04
3911.206, 43092.23
3913.135, 42937.89
3915.063, 42808.81
3916.992, 42761.41
3918.920, 42690.18
3920.849, 42636.55
3922.777, 42617.24
3924.706, 42594.57
3926.634, 42604.36
3928.563, 42557.86
3930.491, 42460.06
3932.419, 42420.48
3934.348, 42382.32
3936.276, 42262.41
3938.205, 42191.77
3940.133, 42199.38
3942.062, 42205.15
3943.990, 42187.77
3945.919, 42128.05
3947.847, 42066.29
3949.776, 42001.93
3951.704, 41899.63
3953.633, 41802.07
3955.561, 41807.45
3957.490, 41745.64
3959.418, 41626.85
3961.346, 41553.39
3963.275, 41480.82
3965.203, 41442.46
3967.132, 41482.73
3969.060, 41609.00
3970.989, 41615.42
3972.917, 41523.87
3974.846, 41509.87
3976.774, 41518.69
3978.703, 41399.28
3980.631, 41332.45
3982.560, 41369.51
3984.488, 41362.49
3986.417, 41345.14
3988.345, 41366.38
3990.273, 41285.48
3992.202, 41116.22
3994.130, 41052.64
3996.059, 41042.86
3997.987, 41041.77
3999.916, 40953.11
4001.844, 40794.05
4003.773, 40746.27
4005.701, 40743.02
4007.630, 40713.52
4009.558, 40638.71
4011.487, 40512.82
4013.415, 40530.11
4015.344, 40594.75
4017.272, 40570.96
4019.200, 40496.83
4021.129, 40378.33
4023.057, 40335.32
4024.986, 40347.27
4026.914, 40309.88
4028.843, 40249.98
4030.771, 40148.23
4032.700, 40130.68
4034.628, 40172.66
4036.557, 40069.52
4038.485, 39941.90
4040.414, 39884.75
4042.342, 39831.96
4044.271, 39780.87
4046.199, 39661.19
4048.127, 39538.83
4050.056, 39464.06
4051.984, 39411.22
4053.913, 39385.40
4055.841, 39409.63
4057.770, 39442.33
4059.698, 39363.74
4061.627, 39282.71
4063.555, 39238.41
4065.484, 39212.93
4067.412, 39231.26
4069.341, 39163.35
4071.269, 39051.10
4073.198, 39008.98
4075.126, 38978.07
4077.054, 38928.24
4078.983, 38895.11
4080.911, 38874.38
4082.840, 38859.06
4084.768, 38797.51
4086.697, 38704.69
4088.625, 38697.54
4090.554, 38694.92
4092.482, 38605.24
4094.411, 38539.08
4096.339, 38562.67
4098.268, 38546.10
4100.196, 38512.84
4102.125, 38493.68
4104.053, 38415.84
4105.981, 38297.07
4107.910, 38267.86
4109.838, 38228.32
4111.767, 38140.66
4113.695, 38097.37
4115.624, 38060.51
4117.552, 38007.50
4119.481, 37920.68
4121.409, 37871.34
4123.338, 37840.56
4125.266, 37754.21
4127.195, 37663.11
4129.123, 37604.48
4131.052, 37595.03
4132.980, 37562.09
4134.909, 37482.74
4136.837, 37388.92
4138.766, 37291.16
4140.694, 37185.98
4142.623, 37088.42
4144.551, 36986.16
4146.479, 36921.69
4148.408, 36880.27
4150.336, 36827.27
4152.265, 36761.56
4154.193, 36697.29
4156.122, 36670.71
4158.050, 36682.04
4159.979, 36563.31
4161.907, 36408.62
4163.835, 36410.54
4165.764, 36388.01
4167.692, 36254.32
4169.621, 36188.57
4171.549, 36159.33
4173.478, 36100.08
4175.406, 36042.02
4177.335, 36000.15
4179.263, 35934.81
4181.192, 35869.80
4183.120, 35844.78
4185.049, 35813.02
4186.977, 35738.57
4188.906, 35698.63
4190.834, 35663.90
4192.763, 35588.64
4194.691, 35513.77
4196.620, 35429.31
4198.548, 35315.54
4200.477, 35206.14
4202.405, 35104.51
4204.333, 35030.08
4206.262, 34992.83
4208.190, 34933.67
4210.119, 34885.32
4212.047, 34938.73
4213.976, 34907.82
4215.904, 34760.96
4217.833, 34706.12
4219.761, 34684.64
4221.689, 34608.03
4223.618, 34554.25
4225.546, 34532.95
4227.475, 34452.50
4229.403, 34370.89
4231.332, 34371.56
4233.260, 34327.38
4235.189, 34232.40
4237.117, 34183.15
4239.046, 34148.73
4240.974, 34108.43
4242.903, 34011.28
4244.831, 33864.88
4246.760, 33751.06
4248.688, 33648.09
4250.617, 33528.41
4252.545, 33521.60
4254.474, 33579.86
4256.402, 33437.47
4258.331, 33287.97
4260.259, 33222.97
4262.188, 33219.35
4264.116, 33230.55
4266.044, 33152.21
4267.973, 33044.82
4269.901, 32935.58
4271.830, 32833.34
4273.758, 32751.54
4275.687, 32722.04
4277.615, 32684.78
4279.543, 32621.10
4281.472, 32557.19
4283.400, 32480.70
4285.329, 32367.34
4287.257, 32259.17
4289.186, 32170.92
4291.114, 32155.45
4293.043, 32157.26
4294.971, 32129.85
4296.900, 32103.38
4298.828, 32061.38
4300.757, 31877.96
4302.685, 31735.27
4304.614, 31777.95
4306.542, 31656.35
4308.471, 31443.16
4310.399, 31385.34
4312.328, 31352.44
4314.256, 31304.11
4316.185, 31238.21
4318.113, 31167.86
4320.042, 31105.60
4321.970, 31035.08
4323.898, 30947.87
4325.827, 30891.55
4327.755, 30815.79
4329.684, 30640.62
4331.612, 30562.38
4333.541, 30569.97
4335.469, 30465.64
4337.397, 30377.48
4339.326, 30395.94
4341.254, 30346.96
4343.183, 30253.76
4345.111, 30193.75
4347.040, 30115.03
4348.968, 30010.98
4350.897, 29833.76
4352.825, 29712.87
4354.754, 29835.19
4356.682, 29873.76
4358.611, 29795.80
4360.539, 29766.30
4362.468, 29738.87
4364.396, 29696.95
4366.325, 29598.03
4368.253, 29479.89
4370.182, 29417.19
4372.110, 29379.56
4374.039, 29354.01
4375.967, 29327.33
4377.896, 29281.65
4379.824, 29200.91
4381.752, 29094.58
4383.681, 28981.80
4385.609, 28917.04
4387.538, 28890.67
4389.466, 28909.48
4391.395, 28876.25
4393.323, 28794.31
4395.251, 28648.66
4397.180, 28555.70
4399.108, 28541.22
4401.037, 28456.38
4402.965, 28372.02
4404.894, 28354.36
4406.822, 28322.74
4408.751, 28263.61
4410.679, 28125.27
4412.608, 28043.28
4414.536, 28066.22
4416.465, 27955.31
4418.393, 27797.75
4420.322, 27670.70
4422.250, 27629.73
4424.179, 27647.64
4426.107, 27601.91
4428.036, 27522.02
4429.964, 27413.09
4431.893, 27450.16
4433.821, 27500.12
4435.750, 27330.87
4437.678, 27217.46
4439.606, 27194.69
4441.535, 27148.29
4443.463, 27104.19
4445.392, 27075.83
4447.320, 27073.00
4449.249, 27077.00
4451.177, 27075.41
4453.105, 26978.61
4455.034, 26788.33
4456.962, 26753.78
4458.891, 26749.33
4460.819, 26708.58
4462.748, 26667.58
4464.676, 26623.02
4466.605, 26565.90
4468.533, 26483.96
4470.462, 26381.02
4472.390, 26295.18
4474.319, 26231.56
4476.247, 26182.04
4478.176, 26210.58
4480.104, 26253.77
4482.033, 26200.67
4483.961, 26093.62
4485.890, 25953.38
4487.818, 25894.40
4489.747, 25876.64
4491.675, 25884.99
4493.604, 25825.25
4495.532, 25705.83
4497.460, 25514.73
4499.389, 25401.32
4501.317, 25372.48
4503.246, 25307.88
4505.174, 25227.35
4507.103, 25123.86
4509.031, 25075.28
4510.959, 25052.33
4512.888, 25025.99
4514.816, 24983.58
4516.745, 24923.79
4518.673, 24836.24
4520.602, 24770.32
4522.530, 24742.60
4524.459, 24664.29
4526.387, 24598.08
4528.316, 24617.00
4530.244, 24586.68
4532.173, 24509.04
4534.101, 24384.44
4536.030, 24342.11
4537.958, 24402.73
4539.887, 24302.45
4541.815, 24174.70
4543.744, 24096.17
4545.672, 23976.23
4547.601, 23846.89
4549.529, 23734.64
4551.458, 23713.92
4553.386, 23754.90
4555.314, 23712.04
4557.243, 23644.58
4559.171, 23566.95
4561.100, 23547.29
4563.028, 23517.56
4564.957, 23424.29
4566.885, 23365.66
4568.813, 23327.58
4570.742, 23263.50
4572.670, 23179.43
4574.599, 23094.14
4576.527, 23138.90
4578.456, 23158.06
4580.384, 23067.01
4582.313, 22991.34
4584.241, 22919.82
4586.170, 22835.60
4588.098, 22801.24
4590.027, 22777.33
4591.955, 22655.82
4593.884, 22595.29
4595.812, 22607.32
4597.741, 22516.20
4599.669, 22448.28
4601.598, 22474.12
4603.526, 22382.12
4605.455, 22270.85
4607.383, 22225.53
4609.312, 22217.45
4611.240, 22207.11
4613.168, 22112.30
4615.097, 22064.19
4617.025, 22056.25
4618.954, 21917.81
4620.882, 21784.57
4622.811, 21705.12
4624.739, 21761.66
4626.667, 21792.75
4628.596, 21687.63
4630.524, 21539.05
4632.453, 21435.14
4634.381, 21531.24
4636.310, 21502.58
4638.238, 21365.83
4640.167, 21292.27
4642.095, 21271.65
4644.024, 21287.34
4645.952, 21196.44
4647.881, 21068.50
4649.809, 20936.97
4651.738, 20919.91
4653.666, 20930.64
4655.595, 20885.45
4657.523, 20810.10
4659.452, 20719.37
4661.380, 20625.96
4663.309, 20573.11
4665.237, 20551.49
4667.166, 20521.94
4669.094, 20472.71
4671.022, 20403.86
4672.951, 20372.47
4674.879, 20325.86
4676.808, 20238.75
4678.736, 20211.04
4680.665, 20173.26
4682.593, 20056.43
4684.521, 19991.60
4686.450, 19963.20
4688.378, 19966.35
4690.307, 19871.87
4692.235, 19728.33
4694.164, 19699.23
4696.092, 19675.32
4698.021, 19641.40
4699.949, 19636.04
4701.878, 19623.56
4703.806, 19587.70
4705.735, 19537.54
4707.663, 19493.54
4709.592, 19467.62
4711.520, 19388.34
4713.449, 19309.52
4715.377, 19300.38
4717.306, 19244.46
4719.234, 19175.56
4721.163, 19143.84
4723.091, 19140.05
4725.020, 19122.99
4726.948, 18972.35
4728.876, 18912.11
4730.805, 18936.75
4732.733, 18815.40
4734.662, 18754.94
4736.590, 18802.59
4738.519, 18750.95
4740.447, 18694.83
4742.375, 18668.70
4744.304, 18588.85
4746.232, 18496.38
4748.161, 18413.10
4750.089, 18404.44
4752.018, 18400.79
4753.946, 18337.47
4755.875, 18304.23
4757.803, 18280.66
4759.732, 18228.06
4761.660, 18172.63
4763.589, 18119.62
4765.517, 18085.59
4767.446, 17995.14
4769.374, 17886.55
4771.303, 17899.56
4773.231, 17896.66
4775.160, 17856.65
4777.088, 17826.59
4779.017, 17795.36
4780.945, 17757.49
4782.874, 17699.21
4784.802, 17650.30
4786.730, 17623.79
4788.659, 17522.79
4790.587, 17448.88
4792.516, 17447.28
4794.444, 17404.94
4796.373, 17355.40
4798.301, 17343.90
4800.229, 17242.97
4802.158, 17128.21
4804.086, 17058.36
4806.015, 17099.90
4807.943, 17147.40
4809.872, 17063.66
4811.800, 16999.71
4813.729, 16957.22
4815.657, 16929.74
4817.586, 16893.64
4819.514, 16863.79
4821.443, 16898.75
4823.371, 16830.34
4825.300, 16702.67
4827.228, 16653.45
4829.157, 16588.67
4831.085, 16508.92
4833.014, 16446.73
4834.942, 16410.02
4836.871, 16388.94
4838.799, 16342.92
4840.728, 16307.05
4842.656, 16286.09
4844.584, 16281.10
4846.513, 16268.28
4848.441, 16238.64
4850.370, 16150.61
4852.298, 16086.90
4854.227, 16062.16
4856.155, 16035.85
4858.083, 15989.16
4860.012, 15920.30
4861.940, 15927.38
4863.869, 15889.27
4865.797, 15780.26
4867.726, 15768.11
4869.654, 15717.95
4871.583, 15585.19
4873.511, 15570.84
4875.440, 15557.34
4877.368, 15496.28
4879.297, 15405.75
4881.225, 15354.91
4883.154, 15367.75
4885.082, 15337.08
4887.011, 15289.55
4888.939, 15238.66
4890.868, 15218.52
4892.796, 15198.69
4894.725, 15163.24
4896.653, 15082.38
4898.582, 15004.05
4900.510, 14953.72
4902.438, 14926.99
4904.367, 14905.54
4906.295, 14879.70
4908.224, 14838.02
4910.152, 14788.19
4912.081, 14735.58
4914.009, 14684.53
4915.938, 14670.64
4917.866, 14701.61
4919.794, 14667.27
4921.723, 14595.70
4923.651, 14504.88
4925.580, 14520.22
4927.508, 14509.89
4929.437, 14418.73
4931.365, 14381.08
4933.294, 14376.14
4935.222, 14386.18
4937.151, 14336.12
4939.079, 14274.65
4941.008, 14221.89
4942.936, 14171.27
4944.865, 14137.34
4946.793, 14115.40
4948.722, 14039.56
4950.650, 13969.37
4952.579, 13925.18
4954.507, 13902.59
4956.436, 13873.74
4958.364, 13838.79
4960.292, 13849.99
4962.221, 13833.73
4964.149, 13788.82
4966.078, 13793.37
4968.006, 13772.92
4969.935, 13718.07
4971.863, 13650.71
4973.792, 13606.98
4975.720, 13581.06
4977.648, 13547.70
4979.577, 13497.00
4981.505, 13438.02
4983.434, 13395.56
4985.362, 13322.11
4987.291, 13231.97
4989.219, 13151.30
4991.148, 13128.51
4993.076, 13134.54
4995.005, 13136.61
4996.933, 13097.47
4998.862, 13044.87
5000.790, 13007.59
5002.719, 12982.18
5004.647, 12957.50
5006.576, 12923.48
5008.504, 12900.31
5010.433, 12869.37
5012.361, 12817.63
5014.290, 12762.90
5016.218, 12727.14
5018.146, 12716.39
5020.075, 12655.70
5022.003, 12612.46
5023.932, 12607.82
5025.860, 12563.38
5027.789, 12530.31
5029.717, 12515.86
5031.646, 12480.66
5033.574, 12425.74
5035.502, 12370.96
5037.431, 12367.20
5039.359, 12401.43
5041.288, 12414.30
5043.216, 12280.46
5045.145, 12201.80
5047.073, 12174.23
5049.002, 12161.18
5050.930, 12159.74
5052.859, 12129.40
5054.787, 11994.60
5056.716, 12002.54
5058.644, 12034.87
5060.573, 12014.43
5062.501, 11910.84
5064.430, 11831.42
5066.358, 11821.40
5068.287, 11791.47
5070.215, 11774.49
5072.144, 11770.74
5074.072, 11723.13
5076.000, 11708.45
5077.929, 11713.03
5079.857, 11656.53
5081.786, 11605.93
5083.714, 11570.68
5085.643, 11559.08
5087.571, 11506.22
5089.500, 11463.00
5091.428, 11486.85
5093.356, 11491.75
5095.285, 11461.59
5097.213, 11389.21
5099.142, 11377.69
5101.070, 11347.90
5102.999, 11275.92
5104.927, 11273.23
5106.856, 11241.66
5108.784, 11178.67
5110.713, 11156.83
5112.641, 11111.77
5114.570, 11060.97
5116.498, 11063.54
5118.427, 11043.78
5120.355, 11017.34
5122.284, 11006.00
5124.212, 10968.32
5126.141, 10936.57
5128.069, 10928.91
5129.998, 10867.94
5131.926, 10824.03
5133.854, 10813.87
5135.783, 10744.36
5137.711, 10717.94
5139.640, 10720.64
5141.568, 10653.40
5143.497, 10642.19
5145.425, 10650.03
5147.354, 10608.18
5149.282, 10595.01
5151.210, 10571.99
5153.139, 10511.20
5155.067, 10490.14
5156.996, 10461.75
5158.924, 10413.49
5160.853, 10407.84
5162.781, 10332.08
5164.710, 10225.97
5166.638, 10260.40
5168.567, 10285.64
5170.495, 10281.39
5172.424, 10244.53
5174.352, 10192.29
5176.281, 10146.36
5178.209, 10120.06
5180.138, 10064.99
5182.066, 10007.82
5183.995, 9960.291
5185.923, 9915.705
5187.852, 9914.991
5189.780, 9920.385
5191.708, 9845.453
5193.637, 9831.192
5195.565, 9822.137
5197.494, 9748.913
5199.422, 9761.853
5201.351, 9792.215
5203.279, 9797.976
5205.208, 9666.965
5207.136, 9642.316
5209.064, 9690.357
5210.993, 9628.305
5212.921, 9529.466
5214.850, 9482.976
5216.778, 9602.366
5218.707, 9596.896
5220.635, 9529.591
5222.564, 9446.821
5224.492, 9440.497
5226.421, 9477.662
5228.349, 9503.299
5230.278, 9388.597
5232.206, 9345.229
5234.135, 9352.569
5236.063, 9372.694
5237.992, 9373.354
5239.920, 9321.999
5241.849, 9221.773
5243.777, 9164.009
5245.706, 9142.645
5247.634, 9140.143
5249.563, 9129.545
5251.491, 9111.009
5253.419, 9090.108
5255.348, 9071.678
5257.276, 9021.938
5259.205, 8979.740
5261.133, 8952.893
5263.062, 8902.965
5264.990, 8883.184
5266.918, 8887.504
5268.847, 8905.930
5270.775, 8880.690
5272.704, 8838.856
5274.632, 8801.899
5276.561, 8828.729
5278.489, 8800.174
5280.418, 8725.094
5282.346, 8711.229
5284.275, 8678.807
5286.203, 8637.660
5288.132, 8608.041
5290.060, 8569.465
5291.989, 8541.056
5293.917, 8521.668
5295.846, 8468.002
5297.774, 8415.866
5299.703, 8383.217
5301.631, 8385.283
5303.560, 8416.841
5305.488, 8418.839
5307.417, 8364.169
5309.345, 8317.228
5311.273, 8286.508
5313.202, 8270.860
5315.130, 8272.635
5317.059, 8176.376
5318.987, 8096.929
5320.916, 8113.296
5322.844, 8150.609
5324.772, 8174.837
5326.701, 8172.054
5328.629, 8125.093
5330.558, 8078.474
5332.486, 8056.835
5334.415, 8071.533
5336.343, 8029.507
5338.272, 7977.403
5340.200, 7946.993
5342.129, 8020.073
5344.057, 7901.367
5345.986, 7769.752
5347.914, 7817.415
5349.843, 7809.520
5351.771, 7790.419
5353.700, 7778.424
5355.628, 7788.940
5357.557, 7733.750
5359.485, 7680.144
5361.414, 7693.115
5363.342, 7670.736
5365.271, 7646.674
5367.199, 7631.817
5369.127, 7617.513
5371.056, 7600.796
5372.984, 7601.719
5374.913, 7631.529
5376.841, 7582.169
5378.770, 7494.767
5380.698, 7419.705
5382.626, 7454.098
5384.555, 7418.283
5386.483, 7368.536
5388.412, 7356.753
5390.340, 7394.540
5392.269, 7406.618
5394.197, 7375.455
5396.126, 7302.546
5398.054, 7268.692
5399.983, 7236.458
5401.911, 7185.825
5403.840, 7162.273
5405.768, 7144.269
5407.697, 7121.178
5409.625, 7081.347
5411.554, 7046.803
5413.482, 7033.826
5415.411, 7041.814
5417.339, 7040.852
5419.268, 7028.740
5421.196, 7017.898
5423.125, 7017.751
5425.053, 6935.594
5426.981, 6915.198
5428.910, 6950.969
5430.838, 6900.260
5432.767, 6851.649
5434.695, 6817.056
5436.624, 6798.282
5438.552, 6771.487
5440.480, 6786.656
5442.409, 6805.315
5444.337, 6759.347
5446.266, 6698.091
5448.194, 6653.127
5450.123, 6632.777
5452.051, 6629.138
5453.980, 6624.672
5455.908, 6613.611
5457.837, 6594.102
5459.765, 6577.819
5461.694, 6560.324
5463.622, 6543.501
5465.551, 6533.907
5467.479, 6458.925
5469.408, 6431.360
5471.336, 6470.649
5473.265, 6445.370
5475.193, 6388.174
5477.122, 6348.360
5479.050, 6361.264
5480.979, 6315.266
5482.907, 6288.769
5484.835, 6296.217
5486.764, 6333.965
5488.692, 6292.415
5490.621, 6238.916
5492.549, 6211.737
5494.478, 6236.715
5496.406, 6166.980
5498.334, 6103.689
5500.263, 6122.401
5502.191, 6121.926
5504.120, 6082.147
5506.048, 6052.684
5507.977, 6129.313
5509.905, 6026.394
5511.834, 5992.071
5513.762, 6038.899
5515.691, 5998.538
5517.619, 5999.742
5519.548, 5987.200
5521.476, 5935.310
5523.405, 5880.961
5525.333, 5857.940
5527.262, 5855.450
5529.190, 5860.790
5531.119, 5906.700
5533.047, 5822.607
5534.976, 5703.468
5536.904, 5728.307
5538.833, 5752.495
5540.761, 5708.867
5542.689, 5639.603
5544.618, 5669.729
5546.546, 5645.824
5548.475, 5631.667
5550.403, 5643.112
5552.332, 5599.186
5554.260, 5587.746
5556.188, 5556.692
5558.117, 5479.988
5560.045, 5496.468
5561.974, 5513.698
5563.902, 5509.419
5565.831, 5479.493
5567.759, 5440.461
5569.688, 5424.229
5571.616, 5422.305
5573.545, 5413.705
5575.473, 5359.926
5577.402, 5355.006
5579.330, 5371.438
5581.259, 5315.468
5583.187, 5244.133
5585.116, 5209.192
5587.044, 5223.386
5588.973, 5292.557
5590.901, 5240.198
5592.830, 5195.070
5594.758, 5202.680
5596.687, 5187.523
5598.615, 5140.452
5600.543, 5126.012
5602.472, 5162.403
5604.400, 5150.312
5606.329, 5130.088
5608.257, 5115.454
5610.186, 5107.588
5612.114, 5080.792
5614.042, 5070.492
5615.971, 5057.598
5617.899, 5024.334
5619.828, 5057.462
5621.756, 5033.473
5623.685, 4983.221
5625.613, 4962.670
5627.542, 4905.565
5629.470, 4932.011
5631.399, 4971.504
5633.327, 4923.397
5635.256, 4905.810
5637.184, 4885.951
5639.113, 4868.265
5641.041, 4868.698
5642.970, 4863.060
5644.898, 4859.164
5646.827, 4843.253
5648.755, 4792.453
5650.684, 4786.169
5652.612, 4777.452
5654.541, 4762.171
5656.469, 4755.728
5658.397, 4757.701
5660.326, 4708.109
5662.254, 4657.221
5664.183, 4695.816
5666.111, 4648.719
5668.040, 4640.089
5669.968, 4658.491
5671.896, 4637.816
5673.825, 4590.018
5675.753, 4547.008
5677.682, 4521.572
5679.610, 4517.517
5681.539, 4527.516
5683.467, 4526.425
5685.396, 4515.481
5687.324, 4506.086
5689.253, 4487.775
5691.181, 4463.307
5693.110, 4445.126
5695.038, 4446.630
5696.967, 4444.205
5698.895, 4420.302
5700.824, 4392.439
5702.752, 4381.408
5704.681, 4358.629
5706.609, 4362.302
5708.538, 4365.563
5710.466, 4340.210
5712.395, 4312.452
5714.323, 4287.275
5716.251, 4271.158
5718.180, 4263.070
5720.108, 4221.696
5722.037, 4182.934
5723.965, 4162.972
5725.894, 4163.143
5727.822, 4154.151
5729.750, 4169.903
5731.679, 4146.460
5733.607, 4084.785
5735.536, 4121.910
5737.464, 4111.233
5739.393, 4073.065
5741.321, 4044.651
5743.250, 4072.940
5745.178, 4029.747
5747.107, 4000.395
5749.035, 4003.676
5750.964, 4010.305
5752.892, 4013.144
5754.821, 4001.687
5756.749, 3972.309
5758.678, 3927.446
5760.606, 3950.021
5762.535, 3965.656
5764.463, 3931.499
5766.392, 3840.894
5768.320, 3883.112
5770.249, 3914.499
5772.177, 3889.195
5774.105, 3822.885
5776.034, 3858.963
5777.962, 3803.282
5779.891, 3754.115
5781.819, 3750.059
5783.748, 3741.827
5785.676, 3770.333
5787.604, 3774.554
5789.533, 3757.860
5791.461, 3756.108
5793.390, 3717.878
5795.318, 3683.301
5797.247, 3672.468
5799.175, 3686.156
5801.104, 3668.663
5803.032, 3667.311
5804.961, 3657.965
5806.889, 3625.627
5808.818, 3582.941
5810.746, 3583.804
5812.675, 3590.149
5814.603, 3583.747
5816.532, 3568.912
5818.460, 3537.421
5820.389, 3494.912
5822.317, 3464.323
5824.246, 3467.159
5826.174, 3442.774
5828.103, 3452.240
5830.031, 3463.631
5831.959, 3454.504
5833.888, 3451.193
5835.816, 3476.239
5837.745, 3446.711
5839.673, 3384.556
5841.602, 3386.855
5843.530, 3375.798
5845.458, 3385.264
5847.387, 3385.703
5849.315, 3350.345
5851.244, 3348.285
5853.172, 3353.723
5855.101, 3321.284
5857.029, 3271.853
5858.958, 3315.828
5860.886, 3318.184
5862.815, 3301.503
5864.743, 3276.893
5866.672, 3245.633
5868.600, 3238.822
5870.529, 3214.946
5872.457, 3224.151
5874.386, 3268.246
5876.314, 3185.083
5878.243, 3191.803
5880.171, 3212.695
5882.100, 3204.258
5884.028, 3152.311
5885.957, 3151.567
5887.885, 3155.038
5889.813, 3133.174
5891.742, 3089.389
5893.670, 3089.607
5895.599, 3096.953
5897.527, 3102.577
5899.456, 3102.291
5901.384, 3093.433
5903.313, 3075.821
5905.241, 3031.574
5907.169, 3003.650
5909.098, 3011.665
5911.026, 3016.272
5912.955, 2986.068
5914.883, 2978.696
5916.812, 2997.092
5918.740, 3013.829
5920.669, 2975.559
5922.597, 2953.678
5924.526, 2931.085
5926.454, 2901.449
5928.383, 2889.024
5930.311, 2926.439
5932.240, 2934.445
5934.168, 2914.986
5936.097, 2895.466
5938.025, 2894.713
5939.954, 2891.115
5941.882, 2895.009
5943.811, 2894.250
5945.739, 2863.373
5947.667, 2830.323
5949.596, 2834.090
5951.524, 2829.233
5953.453, 2799.367
5955.381, 2808.098
5957.310, 2806.589
5959.238, 2767.542
5961.167, 2741.590
5963.095, 2771.042
5965.023, 2742.237
5966.952, 2735.287
5968.880, 2724.843
5970.809, 2708.058
5972.737, 2705.213
5974.666, 2721.710
5976.594, 2690.060
5978.523, 2667.128
5980.451, 2678.868
5982.380, 2693.534
5984.308, 2638.163
5986.237, 2630.065
5988.165, 2640.728
5990.094, 2628.645
5992.022, 2630.615
5993.951, 2593.936
5995.879, 2584.530
5997.808, 2591.132
5999.736, 2578.805
6001.665, 2568.123
6003.593, 2572.496
6005.521, 2551.648
6007.450, 2523.962
6009.378, 2535.997
6011.307, 2513.116
6013.235, 2490.984
6015.164, 2490.918
6017.092, 2500.899
6019.021, 2488.985
6020.949, 2472.760
6022.877, 2476.999
6024.806, 2476.243
6026.734, 2459.528
6028.663, 2440.596
6030.591, 2426.802
6032.520, 2433.618
6034.448, 2421.589
6036.377, 2384.396
6038.305, 2372.564
6040.234, 2342.996
6042.162, 2376.757
6044.091, 2384.956
6046.019, 2336.513
6047.948, 2362.657
6049.876, 2334.187
6051.805, 2323.562
6053.733, 2343.841
6055.662, 2369.425
6057.590, 2348.390
6059.519, 2342.880
6061.447, 2333.114
6063.375, 2321.480
6065.304, 2305.625
6067.232, 2258.550
6069.161, 2283.582
6071.089, 2288.662
6073.018, 2267.786
6074.946, 2252.700
6076.875, 2283.698
6078.803, 2225.450
6080.731, 2218.770
6082.660, 2230.883
6084.588, 2218.284
6086.517, 2203.120
6088.445, 2224.287
6090.374, 2187.386
6092.302, 2160.509
6094.231, 2174.061
6096.159, 2164.920
6098.088, 2165.400
6100.016, 2181.875
6101.945, 2179.708
6103.873, 2162.307
6105.802, 2168.786
6107.730, 2130.046
6109.659, 2071.764
6111.587, 2092.504
6113.516, 2137.917
6115.444, 2081.353
6117.373, 2105.344
6119.301, 2116.021
6121.229, 2099.389
6123.158, 2076.112
6125.086, 2068.076
6127.015, 2061.071
6128.943, 2074.093
6130.872, 2074.546
6132.800, 2053.904
6134.729, 2027.189
6136.657, 2038.698
6138.585, 2030.684
6140.514, 2010.450
6142.442, 2006.278
6144.371, 2013.760
6146.299, 1983.533
6148.228, 1986.352
6150.156, 1961.298
6152.085, 1963.042
6154.013, 1981.341
6155.942, 1950.582
6157.870, 1947.683
6159.799, 1960.638
6161.727, 1949.261
6163.656, 1936.406
6165.584, 1946.606
6167.513, 1907.666
6169.441, 1934.933
6171.370, 1937.530
6173.298, 1917.246
6175.227, 1901.084
6177.155, 1905.846
6179.083, 1899.116
6181.012, 1887.524
6182.940, 1896.934
6184.869, 1906.415
6186.797, 1881.145
6188.726, 1856.559
6190.654, 1862.812
6192.583, 1829.328
6194.511, 1804.543
6196.439, 1823.240
6198.368, 1835.298
6200.296, 1837.851
6202.225, 1834.433
6204.153, 1835.837
6206.082, 1831.236
6208.010, 1808.392
6209.939, 1805.626
6211.867, 1794.579
6213.796, 1798.100
6215.724, 1782.905
6217.653, 1749.245
6219.581, 1757.058
6221.510, 1783.966
6223.438, 1769.738
6225.367, 1758.690
6227.295, 1766.379
6229.224, 1774.795
6231.152, 1755.521
6233.081, 1730.295
6235.009, 1723.293
6236.938, 1731.967
6238.866, 1735.021
6240.794, 1714.477
6242.723, 1720.093
6244.651, 1710.348
6246.580, 1728.831
6248.508, 1731.429
6250.437, 1701.334
6252.365, 1707.810
6254.293, 1712.459
6256.222, 1683.005
6258.150, 1680.447
6260.079, 1689.269
6262.007, 1673.807
6263.936, 1660.783
6265.864, 1671.348
6267.793, 1638.554
6269.721, 1637.683
6271.650, 1652.490
6273.578, 1619.994
6275.507, 1608.484
6277.435, 1610.793
6279.364, 1621.442
6281.292, 1619.399
6283.221, 1605.196
6285.149, 1596.382
6287.078, 1599.997
6289.006, 1590.676
6290.935, 1586.815
6292.863, 1573.627
6294.792, 1558.128
6296.720, 1564.239
6298.648, 1559.917
6300.577, 1570.174
6302.505, 1573.875
6304.434, 1562.449
6306.362, 1537.367
6308.291, 1510.527
6310.219, 1527.301
6312.147, 1540.270
6314.076, 1531.339
6316.004, 1527.765
6317.933, 1529.691
6319.861, 1507.465
6321.790, 1478.721
6323.718, 1495.100
6325.647, 1494.549
6327.575, 1494.724
6329.504, 1504.339
6331.432, 1501.358
6333.361, 1455.504
6335.289, 1459.714
6337.218, 1463.130
6339.146, 1451.757
6341.075, 1444.522
6343.003, 1456.352
6344.932, 1453.295
6346.860, 1459.365
6348.789, 1439.064
6350.717, 1444.215
6352.646, 1446.556
6354.574, 1413.224
6356.502, 1418.877
6358.431, 1432.048
6360.359, 1447.344
6362.288, 1420.647
6364.216, 1395.031
6366.145, 1404.646
6368.073, 1412.635
6370.001, 1424.738
6371.930, 1410.773
6373.858, 1376.338
6375.787, 1365.976
6377.715, 1383.542
6379.644, 1394.600
6381.572, 1397.107
6383.501, 1346.199
6385.429, 1329.891
6387.358, 1354.509
6389.286, 1364.924
6391.215, 1344.010
6393.143, 1377.013
6395.072, 1359.937
6397.000, 1334.673
6398.929, 1326.924
6400.857, 1322.945
6402.786, 1315.780
6404.714, 1318.663
6406.643, 1338.035
6408.571, 1301.200
6410.500, 1331.869
6412.428, 1321.537
6414.356, 1291.746
6416.285, 1304.552
6418.213, 1281.214
6420.142, 1285.525
6422.070, 1287.010
6423.999, 1269.749
6425.927, 1268.461
6427.855, 1272.727
6429.784, 1246.326
6431.712, 1233.751
6433.641, 1220.926
6435.569, 1224.477
6437.498, 1254.173
6439.426, 1263.055
6441.355, 1237.942
6443.283, 1225.524
6445.212, 1237.549
6447.140, 1231.655
6449.069, 1229.668
6450.997, 1207.868
##END=


